File: input/Test1_03_MB.txt
EC-Lab ASCII FILE
Nb header lines : 95

Modulo Bat

Run on channel : 1 (SN 65331)
Stack channel(s) : 1, 2, 3
User :
CE vs. WE compliance from -20 V to 0 V
Electrode connection : standard
Potential control : Ewe
Ewe ctrl range : min = 0,00 V, max = 20,00 V
Safety Limits :
	Ewe max = 17,50 V
	E stack slave max = 4,40 V
	for t > 10 ms
	Do not start on E overload
Acquisition started on : 08/24/2022 09:45:53.607
Loaded Setting File :  NONE
Saved on :
	File : ~Test3_03_MB_C01.mpr
	Directory : W:\Projekte\Batterielabor\02_Messexport\Ank\SA Brehler\Knopfzellen Strang\
	Host : 10.33.33.222
Device : VSP-3e (SN .003188)
Address : 10.33.33.221
EC-Lab for windows v11.43 (software)
Internet server v11.40 (firmware)
Command interpretor v11.40 (firmware)
Electrode material :
Initial state :
Electrolyte :
Comments : Median 4,490 mAh
Mass of active material : 0,001 mg
 at x = 0,000
Molecular weight of active material (at x = 0) : 0,001 g/mol
Atomic weight of intercalated ion : 0,001 g/mol
Acquisition started at : xo = 0,000
Number of e- transfered per intercalated ion : 1
for DX = 1, DQ = 26,802 mA.h
Battery capacity : 4,490 mA.h
Electrode surface area : 0,000 cm²
Characteristic mass : 0,001 g
Volume (V) : 0,001 cm³
Record Ece
Cycle Definition : Charge/Discharge alternance
Ns                  0                   1                   2                   3                   4
ctrl_type           Rest                CC                  Rest                CC                  Rest
Apply I/C           I                   C / N               I                   C / N               I
current/potential   current             current             current             current             current
ctrl1_val                               100,000                                 100,000
ctrl1_val_unit                          mA                                      mA
ctrl1_val_vs                            <None>                                  <None>
ctrl2_val
ctrl2_val_unit
ctrl2_val_vs
ctrl3_val
ctrl3_val_unit
ctrl3_val_vs
N                   0,00                1,00                0,00                20,00               0,00
charge/discharge    Charge              Discharge           Charge              Discharge           Charge
charge/discharge_1  Charge              Charge              Charge              Charge              Charge
Apply I/C_1         I                   I                   I                   I                   I
N1                  0,00                0,00                0,00                0,00                0,00
ctrl4_val
ctrl4_val_unit
ctrl_seq            0                   0                   0                   0                   0
ctrl_repeat         0                   0                   0                   0                   0
ctrl_trigger        Falling Edge        Falling Edge        Falling Edge        Falling Edge        Falling Edge
ctrl_TO_t           0,000               0,000               0,000               0,000               0,000
ctrl_TO_t_unit      d                   d                   d                   d                   d
ctrl_Nd             6                   6                   6                   6                   6
ctrl_Na             2                   2                   2                   2                   2
ctrl_corr           0                   0                   0                   0                   0
lim_nb              1                   1                   1                   1                   1
lim1_type           Time                Time                Time                Time                Time
lim1_comp           >                   >                   >                   >                   >
lim1_Q              Q limit             Q limit             Q limit             Q limit             Q limit
lim1_value          10,000              1,000               5,000               16,000              5,000
lim1_value_unit     mn                  s                   s                   h                   mn
lim1_action         Next sequence       Next sequence       Next sequence       Next sequence       Next sequence
lim1_seq            1                   2                   3                   4                   5
rec_nb              1                   1                   1                   1                   1
rec1_type           Time                Time                Time                Time                Time
rec1_value          1,000               1,000               1,000               0,500               1,000
rec1_value_unit     s                   ms                  ms                  s                   s
E range min (V)     0,000               0,000               0,000               0,000               0,000
E range max (V)     20,000              20,000              20,000              20,000              20,000
I Range             10 mA               10 mA               10 mA               1 mA                10 mA
I Range min         Unset               Unset               Unset               Unset               Unset
I Range max         Unset               Unset               Unset               Unset               Unset
I Range init        Unset               Unset               Unset               Unset               Unset
auto rest           1                   1                   1                   1                   1
Bandwidth           5                   5                   5                   5                   5

time/s	Estack/V	E1/V	E2/V	E3/V	E4/V	I/mA	(Q-Qo)/mA.h
3,416732118527580E+002	1,6574368E+001	4,1446390E+000	4,1514602E+000	4,1257114E+000	4,1450601E+000	0,0000000E+000	0,000000000000000E+000
3,936732105391275E+002	1,6574528E+001	4,1447501E+000	4,1515837E+000	4,1258736E+000	4,1451378E+000	0,0000000E+000	0,000000000000000E+000
4,456732092254970E+002	1,6574928E+001	4,1447878E+000	4,1516600E+000	4,1258554E+000	4,1451573E+000	0,0000000E+000	0,000000000000000E+000
4,976732079118665E+002	1,6574768E+001	4,1447496E+000	4,1515083E+000	4,1257792E+000	4,1451769E+000	0,0000000E+000	0,000000000000000E+000
5,496732065982360E+002	1,6574928E+001	4,1448069E+000	4,1516590E+000	4,1256647E+000	4,1451392E+000	0,0000000E+000	0,000000000000000E+000
6,016732052846055E+002	1,6574608E+001	4,1448641E+000	4,1516213E+000	4,1257987E+000	4,1450434E+000	0,0000000E+000	0,000000000000000E+000
6,536732039709750E+002	1,6574608E+001	4,1447878E+000	4,1516213E+000	4,1257410E+000	4,1450615E+000	0,0000000E+000	0,000000000000000E+000
7,056732026573445E+002	1,6574848E+001	4,1447115E+000	4,1516218E+000	4,1258359E+000	4,1451201E+000	0,0000000E+000	0,000000000000000E+000
7,576732013437140E+002	1,6574207E+001	4,1448641E+000	4,1516414E+000	4,1257601E+000	4,1452146E+000	0,0000000E+000	0,000000000000000E+000
8,096732000300835E+002	1,6574608E+001	4,1448631E+000	4,1515841E+000	4,1257973E+000	4,1451387E+000	0,0000000E+000	0,000000000000000E+000
8,616731987164530E+002	1,6574768E+001	4,1448445E+000	4,1516790E+000	4,1258550E+000	4,1452336E+000	0,0000000E+000	0,000000000000000E+000
9,136731974028226E+002	1,6574207E+001	4,1447492E+000	4,1515470E+000	4,1257224E+000	4,1450629E+000	0,0000000E+000	0,000000000000000E+000
9,416483966961096E+002	1,5898654E+001	3,9421682E+000	4,0704002E+000	3,9129694E+000	4,0670600E+000	-4,4758277E+000	-2,720519001947509E-005
9,417003966947959E+002	1,5834010E+001	3,9255674E+000	4,0548248E+000	3,8941803E+000	4,0545225E+000	-4,4862523E+000	-9,194213972820176E-005
9,417523966934823E+002	1,5813719E+001	3,9197237E+000	4,0500360E+000	3,8884149E+000	4,0510421E+000	-4,4870782E+000	-1,567527378367053E-004
9,418043966921687E+002	1,5805538E+001	3,9175942E+000	4,0479407E+000	3,8856764E+000	4,0497112E+000	-4,4880958E+000	-2,215817584163613E-004
9,418563966908550E+002	1,5800486E+001	3,9162421E+000	4,0468946E+000	3,8840203E+000	4,0489044E+000	-4,4884768E+000	-2,864184910423226E-004
9,419083966895414E+002	1,5797116E+001	3,9154129E+000	4,0461550E+000	3,8828065E+000	4,0484467E+000	-4,4893665E+000	-3,512584587434928E-004
9,419603966882278E+002	1,5794390E+001	3,9147503E+000	4,0455942E+000	3,8819458E+000	4,0479116E+000	-4,4892397E+000	-4,160993406474590E-004
9,420123966869141E+002	1,5792465E+001	3,9143240E+000	4,0450673E+000	3,8812251E+000	4,0475173E+000	-4,4903836E+000	-4,809425000846386E-004
9,420643966856005E+002	1,5790861E+001	3,9140058E+000	4,0446916E+000	3,8804653E+000	4,0471354E+000	-4,4892397E+000	-5,457857657770315E-004
9,421163966842869E+002	1,5788856E+001	3,9138513E+000	4,0442505E+000	3,8798678E+000	4,0468421E+000	-4,4891758E+000	-6,106302247544129E-004
9,421683966829733E+002	1,5787733E+001	3,9135144E+000	4,0438752E+000	3,8795233E+000	4,0465860E+000	-4,4884768E+000	-6,754744050734573E-004
9,422203966816596E+002	1,5785969E+001	3,9132469E+000	4,0435429E+000	3,8790109E+000	4,0461850E+000	-4,4900661E+000	-7,403186983499262E-004
9,422723966803460E+002	1,5785728E+001	3,9131138E+000	4,0431843E+000	3,8787971E+000	4,0459552E+000	-4,4899387E+000	-8,051632881661256E-004
9,423243966790324E+002	1,5784123E+001	3,9128380E+000	4,0429530E+000	3,8782825E+000	4,0455499E+000	-4,4900026E+000	-8,700079912046592E-004
9,423763966777187E+002	1,5782761E+001	3,9127619E+000	4,0426440E+000	3,8777986E+000	4,0453954E+000	-4,4894938E+000	-9,348528107239140E-004
9,424283966764051E+002	1,5782199E+001	3,9127798E+000	4,0424228E+000	3,8777378E+000	4,0451889E+000	-4,4894304E+000	-9,996985057956643E-004
9,424803966750915E+002	1,5781076E+001	3,9125094E+000	4,0421014E+000	3,8773868E+000	4,0449162E+000	-4,4890490E+000	-1,064543568607834E-003
9,425323966737778E+002	1,5780033E+001	3,9123096E+000	4,0417867E+000	3,8769670E+000	4,0447254E+000	-4,4898753E+000	-1,129388889176978E-003
9,425843966724642E+002	1,5779231E+001	3,9122152E+000	4,0416398E+000	3,8767636E+000	4,0445552E+000	-4,4893665E+000	-1,194234259893497E-003
9,426855966699077E+002	1,6502985E+001	4,1261811E+000	4,1350131E+000	4,1028805E+000	4,1327186E+000	0,0000000E+000	-1,245610848502980E-003
9,427375966685941E+002	1,6530415E+001	4,1338248E+000	4,1413317E+000	4,1106906E+000	4,1373124E+000	0,0000000E+000	-1,245610848502980E-003
9,427895966672804E+002	1,6540682E+001	4,1369896E+000	4,1438875E+000	4,1138501E+000	4,1389356E+000	0,0000000E+000	-1,245610848502980E-003
9,428415966659668E+002	1,6545895E+001	4,1384597E+000	4,1448536E+000	4,1154141E+000	4,1395922E+000	0,0000000E+000	-1,245610848502980E-003
9,428935966646532E+002	1,6548300E+001	4,1392360E+000	4,1454725E+000	4,1166096E+000	4,1399560E+000	0,0000000E+000	-1,245610848502980E-003
9,429455966633395E+002	1,6550467E+001	4,1397023E+000	4,1458817E+000	4,1172485E+000	4,1402125E+000	0,0000000E+000	-1,245610848502980E-003
9,429975966620259E+002	1,6552231E+001	4,1399918E+000	4,1461248E+000	4,1178803E+000	4,1404624E+000	0,0000000E+000	-1,245610848502980E-003
9,430495966607123E+002	1,6552872E+001	4,1401129E+000	4,1464090E+000	4,1182394E+000	4,1406717E+000	0,0000000E+000	-1,245610848502980E-003
9,431015966593986E+002	1,6554075E+001	4,1405005E+000	4,1466460E+000	4,1187882E+000	4,1409707E+000	0,0000000E+000	-1,245610848502980E-003
9,431535966580850E+002	1,6555119E+001	4,1405282E+000	4,1467338E+000	4,1190143E+000	4,1409693E+000	0,0000000E+000	-1,245610848502980E-003
9,432055966567714E+002	1,6555119E+001	4,1407895E+000	4,1470647E+000	4,1192589E+000	4,1410551E+000	0,0000000E+000	-1,245610848502980E-003
9,432575966554577E+002	1,6555679E+001	4,1407762E+000	4,1470795E+000	4,1196036E+000	4,1412020E+000	0,0000000E+000	-1,245610848502980E-003
9,433095966541441E+002	1,6556240E+001	4,1407762E+000	4,1472182E+000	4,1197543E+000	4,1414289E+000	0,0000000E+000	-1,245610848502980E-003
9,433615966528305E+002	1,6557043E+001	4,1409807E+000	4,1471453E+000	4,1198959E+000	4,1413918E+000	0,0000000E+000	-1,245610848502980E-003
9,434135966515169E+002	1,6557764E+001	4,1409483E+000	4,1473327E+000	4,1200218E+000	4,1414237E+000	0,0000000E+000	-1,245610848502980E-003
9,434655966502032E+002	1,6557764E+001	4,1411901E+000	4,1474147E+000	4,1202354E+000	4,1414862E+000	0,0000000E+000	-1,245610848502980E-003
9,435175966488896E+002	1,6558167E+001	4,1412764E+000	4,1475668E+000	4,1203332E+000	4,1415653E+000	0,0000000E+000	-1,245610848502980E-003
9,435695966475760E+002	1,6558647E+001	4,1412148E+000	4,1476445E+000	4,1204004E+000	4,1416602E+000	0,0000000E+000	-1,245610848502980E-003
9,436215966462623E+002	1,6559048E+001	4,1413531E+000	4,1475854E+000	4,1206203E+000	4,1417189E+000	0,0000000E+000	-1,245610848502980E-003
9,436735966449487E+002	1,6559048E+001	4,1413836E+000	4,1476622E+000	4,1207500E+000	4,1417232E+000	0,0000000E+000	-1,245610848502980E-003
9,437255966436351E+002	1,6559851E+001	4,1415429E+000	4,1478367E+000	4,1207986E+000	4,1417766E+000	0,0000000E+000	-1,245610848502980E-003
9,437775966423214E+002	1,6559690E+001	4,1414905E+000	4,1478457E+000	4,1208773E+000	4,1418829E+000	0,0000000E+000	-1,245610848502980E-003
9,438295966410078E+002	1,6559690E+001	4,1414676E+000	4,1478086E+000	4,1209750E+000	4,1418815E+000	0,0000000E+000	-1,245610848502980E-003
9,438815966396942E+002	1,6560331E+001	4,1414361E+000	4,1478705E+000	4,1210566E+000	4,1420093E+000	0,0000000E+000	-1,245610848502980E-003
9,439335966383806E+002	1,6560171E+001	4,1415305E+000	4,1480188E+000	4,1211405E+000	4,1419802E+000	0,0000000E+000	-1,245610848502980E-003
9,439855966370669E+002	1,6560331E+001	4,1415977E+000	4,1480193E+000	4,1212053E+000	4,1419964E+000	0,0000000E+000	-1,245610848502980E-003
9,440375966357533E+002	1,6560091E+001	4,1415911E+000	4,1480322E+000	4,1213751E+000	4,1420946E+000	0,0000000E+000	-1,245610848502980E-003
9,440895966344397E+002	1,6560732E+001	4,1417656E+000	4,1481404E+000	4,1213727E+000	4,1420898E+000	0,0000000E+000	-1,245610848502980E-003
9,441415966331260E+002	1,6560892E+001	4,1417379E+000	4,1480556E+000	4,1214375E+000	4,1421227E+000	0,0000000E+000	-1,245610848502980E-003
9,441935966318124E+002	1,6561052E+001	4,1418881E+000	4,1481581E+000	4,1214399E+000	4,1420970E+000	0,0000000E+000	-1,245610848502980E-003
9,442455966304988E+002	1,6561052E+001	4,1417928E+000	4,1481032E+000	4,1215897E+000	4,1423097E+000	0,0000000E+000	-1,245610848502980E-003
9,442975966291851E+002	1,6561775E+001	4,1418118E+000	4,1482077E+000	4,1216269E+000	4,1422839E+000	0,0000000E+000	-1,245610848502980E-003
9,443495966278715E+002	1,6561615E+001	4,1419225E+000	4,1482234E+000	4,1216564E+000	4,1423497E+000	0,0000000E+000	-1,245610848502980E-003
9,444015966265579E+002	1,6561615E+001	4,1418395E+000	4,1482692E+000	4,1216788E+000	4,1422305E+000	0,0000000E+000	-1,245610848502980E-003
9,444535966252442E+002	1,6561855E+001	4,1418676E+000	4,1483645E+000	4,1217155E+000	4,1421824E+000	0,0000000E+000	-1,245610848502980E-003
9,445055966239306E+002	1,6562096E+001	4,1418805E+000	4,1483216E+000	4,1218376E+000	4,1423960E+000	0,0000000E+000	-1,245610848502980E-003
9,445575966226170E+002	1,6562096E+001	4,1419783E+000	4,1484594E+000	4,1218171E+000	4,1423635E+000	0,0000000E+000	-1,245610848502980E-003
9,446095966213034E+002	1,6562096E+001	4,1420069E+000	4,1483669E+000	4,1218796E+000	4,1423020E+000	0,0000000E+000	-1,245610848502980E-003
9,446615966199897E+002	1,6562336E+001	4,1419692E+000	4,1484289E+000	4,1219788E+000	4,1424556E+000	0,0000000E+000	-1,245610848502980E-003
9,447135966186761E+002	1,6562176E+001	4,1419740E+000	4,1483288E+000	4,1220841E+000	4,1423931E+000	0,0000000E+000	-1,245610848502980E-003
9,447655966173625E+002	1,6562817E+001	4,1420393E+000	4,1484947E+000	4,1220098E+000	4,1424508E+000	0,0000000E+000	-1,245610848502980E-003
9,448175966160488E+002	1,6562979E+001	4,1420946E+000	4,1484785E+000	4,1220465E+000	4,1423683E+000	0,0000000E+000	-1,245610848502980E-003
9,448695966147352E+002	1,6563059E+001	4,1422281E+000	4,1484904E+000	4,1220007E+000	4,1425247E+000	0,0000000E+000	-1,245610848502980E-003
9,449215966134216E+002	1,6562737E+001	4,1421480E+000	4,1484795E+000	4,1220584E+000	4,1424756E+000	0,0000000E+000	-1,245610848502980E-003
9,449735966121079E+002	1,6562416E+001	4,1421962E+000	4,1484561E+000	4,1221280E+000	4,1425576E+000	0,0000000E+000	-1,245610848502980E-003
9,450255966107943E+002	1,6562737E+001	4,1420679E+000	4,1485596E+000	4,1221724E+000	4,1426330E+000	0,0000000E+000	-1,245610848502980E-003
9,450775966094807E+002	1,6563059E+001	4,1421981E+000	4,1485467E+000	4,1222062E+000	4,1426029E+000	0,0000000E+000	-1,245610848502980E-003
9,451295966081670E+002	1,6562737E+001	4,1421967E+000	4,1485095E+000	4,1221790E+000	4,1426220E+000	0,0000000E+000	-1,245610848502980E-003
9,451815966068534E+002	1,6563540E+001	4,1422648E+000	4,1485262E+000	4,1222663E+000	4,1426291E+000	0,0000000E+000	-1,245610848502980E-003
9,452335966055398E+002	1,6563299E+001	4,1422691E+000	4,1486950E+000	4,1222324E+000	4,1426687E+000	0,0000000E+000	-1,245610848502980E-003
9,452855966042262E+002	1,6563540E+001	4,1421943E+000	4,1486092E+000	4,1222177E+000	4,1426263E+000	0,0000000E+000	-1,245610848502980E-003
9,453375966029125E+002	1,6563620E+001	4,1422873E+000	4,1486435E+000	4,1223607E+000	4,1425438E+000	0,0000000E+000	-1,245610848502980E-003
9,453895966015989E+002	1,6563219E+001	4,1423569E+000	4,1486869E+000	4,1223192E+000	4,1426692E+000	0,0000000E+000	-1,245610848502980E-003
9,454415966002853E+002	1,6563459E+001	4,1423163E+000	4,1486926E+000	4,1222796E+000	4,1427345E+000	0,0000000E+000	-1,245610848502980E-003
9,454935965989716E+002	1,6563379E+001	4,1423440E+000	4,1487832E+000	4,1224709E+000	4,1426406E+000	0,0000000E+000	-1,245610848502980E-003
9,455455965976580E+002	1,6563379E+001	4,1423235E+000	4,1486888E+000	4,1224351E+000	4,1426578E+000	0,0000000E+000	-1,245610848502980E-003
9,455975965963444E+002	1,6563780E+001	4,1423984E+000	4,1489043E+000	4,1223679E+000	4,1426067E+000	0,0000000E+000	-1,245610848502980E-003
9,456495965950307E+002	1,6563860E+001	4,1423798E+000	4,1488152E+000	4,1224537E+000	4,1426339E+000	0,0000000E+000	-1,245610848502980E-003
9,457015965937171E+002	1,6563139E+001	4,1423469E+000	4,1488314E+000	4,1224399E+000	4,1428194E+000	0,0000000E+000	-1,245610848502980E-003
9,457535965924035E+002	1,6563780E+001	4,1425376E+000	4,1487713E+000	4,1224570E+000	4,1426563E+000	0,0000000E+000	-1,245610848502980E-003
9,458055965910899E+002	1,6563620E+001	4,1424766E+000	4,1487875E+000	4,1225362E+000	4,1426449E+000	0,0000000E+000	-1,245610848502980E-003
9,458575965897762E+002	1,6563620E+001	4,1423612E+000	4,1487775E+000	4,1225066E+000	4,1426497E+000	0,0000000E+000	-1,245610848502980E-003
9,459095965884626E+002	1,6563700E+001	4,1424446E+000	4,1488376E+000	4,1226187E+000	4,1427884E+000	0,0000000E+000	-1,245610848502980E-003
9,459615965871490E+002	1,6564020E+001	4,1425509E+000	4,1488314E+000	4,1225209E+000	4,1427598E+000	0,0000000E+000	-1,245610848502980E-003
9,460135965858353E+002	1,6564421E+001	4,1424031E+000	4,1488876E+000	4,1225657E+000	4,1428871E+000	0,0000000E+000	-1,245610848502980E-003
9,460655965845217E+002	1,6564341E+001	4,1423640E+000	4,1488318E+000	4,1225901E+000	4,1427493E+000	0,0000000E+000	-1,245610848502980E-003
9,461175965832081E+002	1,6564260E+001	4,1424284E+000	4,1488342E+000	4,1226420E+000	4,1427932E+000	0,0000000E+000	-1,245610848502980E-003
9,461695965818944E+002	1,6564823E+001	4,1425524E+000	4,1489239E+000	4,1225414E+000	4,1427331E+000	0,0000000E+000	-1,245610848502980E-003
9,462215965805808E+002	1,6564503E+001	4,1424150E+000	4,1488719E+000	4,1226268E+000	4,1428299E+000	0,0000000E+000	-1,245610848502980E-003
9,462735965792672E+002	1,6564180E+001	4,1424732E+000	4,1489453E+000	4,1227179E+000	4,1427393E+000	0,0000000E+000	-1,245610848502980E-003
9,463255965779535E+002	1,6564421E+001	4,1424823E+000	4,1489449E+000	4,1226840E+000	4,1427593E+000	0,0000000E+000	-1,245610848502980E-003
9,463775965766399E+002	1,6564341E+001	4,1425405E+000	4,1489353E+000	4,1227350E+000	4,1428280E+000	0,0000000E+000	-1,245610848502980E-003
9,464295965753263E+002	1,6564180E+001	4,1424766E+000	4,1489100E+000	4,1227069E+000	4,1428766E+000	0,0000000E+000	-1,245610848502980E-003
9,464815965740127E+002	1,6564743E+001	4,1425319E+000	4,1489849E+000	4,1227584E+000	4,1429310E+000	0,0000000E+000	-1,245610848502980E-003
9,465335965726990E+002	1,6564503E+001	4,1425419E+000	4,1490307E+000	4,1228514E+000	4,1428680E+000	0,0000000E+000	-1,245610848502980E-003
9,465855965713854E+002	1,6564743E+001	4,1425810E+000	4,1490374E+000	4,1227450E+000	4,1428018E+000	0,0000000E+000	-1,245610848502980E-003
9,466375965700718E+002	1,6564903E+001	4,1424823E+000	4,1488972E+000	4,1228423E+000	4,1428580E+000	0,0000000E+000	-1,245610848502980E-003
9,466895965687581E+002	1,6564421E+001	4,1425529E+000	4,1489773E+000	4,1228409E+000	4,1429067E+000	0,0000000E+000	-1,245610848502980E-003
9,467415965674445E+002	1,6564823E+001	4,1426439E+000	4,1489849E+000	4,1227531E+000	4,1429529E+000	0,0000000E+000	-1,245610848502980E-003
9,467935965661309E+002	1,6564903E+001	4,1426926E+000	4,1490321E+000	4,1227679E+000	4,1429090E+000	0,0000000E+000	-1,245610848502980E-003
9,468455965648172E+002	1,6564983E+001	4,1427112E+000	4,1491127E+000	4,1229138E+000	4,1427522E+000	0,0000000E+000	-1,245610848502980E-003
9,468975965635036E+002	1,6564983E+001	4,1426215E+000	4,1490984E+000	4,1227689E+000	4,1429205E+000	0,0000000E+000	-1,245610848502980E-003
9,469495965621900E+002	1,6564583E+001	4,1427245E+000	4,1490426E+000	4,1228962E+000	4,1428151E+000	0,0000000E+000	-1,245610848502980E-003
9,470015965608764E+002	1,6565304E+001	4,1426363E+000	4,1491408E+000	4,1228695E+000	4,1429944E+000	0,0000000E+000	-1,245610848502980E-003
9,470535965595627E+002	1,6564823E+001	4,1425443E+000	4,1490517E+000	4,1228724E+000	4,1429157E+000	0,0000000E+000	-1,245610848502980E-003
9,471055965582491E+002	1,6565063E+001	4,1425543E+000	4,1490617E+000	4,1228313E+000	4,1429534E+000	0,0000000E+000	-1,245610848502980E-003
9,471575965569355E+002	1,6564903E+001	4,1426482E+000	4,1491370E+000	4,1229110E+000	4,1429501E+000	0,0000000E+000	-1,245610848502980E-003
9,472095965556218E+002	1,6565865E+001	4,1426806E+000	4,1491127E+000	4,1229482E+000	4,1429639E+000	0,0000000E+000	-1,245610848502980E-003
9,472615965543082E+002	1,6564983E+001	4,1427426E+000	4,1491013E+000	4,1229162E+000	4,1430593E+000	0,0000000E+000	-1,245610848502980E-003
9,473135965529946E+002	1,6565144E+001	4,1426549E+000	4,1491656E+000	4,1228704E+000	4,1430049E+000	0,0000000E+000	-1,245610848502980E-003
9,473655965516809E+002	1,6565063E+001	4,1427684E+000	4,1491485E+000	4,1229043E+000	4,1430674E+000	0,0000000E+000	-1,245610848502980E-003
9,474175965503673E+002	1,6565144E+001	4,1426864E+000	4,1491976E+000	4,1229606E+000	4,1430836E+000	0,0000000E+000	-1,245610848502980E-003
9,474695965490537E+002	1,6565144E+001	4,1426711E+000	4,1491237E+000	4,1230145E+000	4,1430779E+000	0,0000000E+000	-1,245610848502980E-003
9,475215965477400E+002	1,6565384E+001	4,1427021E+000	4,1491418E+000	4,1230159E+000	4,1430068E+000	0,0000000E+000	-1,245610848502980E-003
9,475735965464264E+002	1,6565224E+001	4,1427679E+000	4,1491828E+000	4,1229024E+000	4,1431279E+000	0,0000000E+000	-1,245610848502980E-003
9,476737965438952E+002	1,6562016E+001	4,0969267E+000	4,1296825E+000	4,0693884E+000	4,1237931E+000	0,0000000E+000	-1,245610848502980E-003
9,721755959249276E+002	1,6258205E+001	4,0619264E+000	4,0979609E+000	4,0272179E+000	4,0973582E+000	-1,4965391E+000	-1,142998227091051E-002
9,981755952681124E+002	1,6223236E+001	4,0527382E+000	4,0879745E+000	4,0190845E+000	4,0899329E+000	-1,4965836E+000	-2,223824103674707E-002
1,024175594611297E+003	1,6194122E+001	4,0454021E+000	4,0802588E+000	4,0104613E+000	4,0841498E+000	-1,4965518E+000	-3,304651188997510E-002
1,050175593954482E+003	1,6168379E+001	4,0390782E+000	4,0734396E+000	4,0026722E+000	4,0791903E+000	-1,4965264E+000	-4,385472526635809E-002
1,076175593297667E+003	1,6145599E+001	4,0329285E+000	4,0674810E+000	3,9965067E+000	4,0749526E+000	-1,4965136E+000	-5,466295208382027E-002
1,102175592640851E+003	1,6124748E+001	4,0270085E+000	4,0617137E+000	3,9912999E+000	4,0710773E+000	-1,4965200E+000	-6,547116920036823E-002
1,128175591984036E+003	1,6105659E+001	4,0210848E+000	4,0565195E+000	3,9868698E+000	4,0672245E+000	-1,4965264E+000	-7,627942707377755E-002
1,154175591327221E+003	1,6084646E+001	4,0149531E+000	4,0514398E+000	3,9810300E+000	4,0637698E+000	-1,4965708E+000	-8,708764782805659E-002
1,180175590670406E+003	1,6065477E+001	4,0091076E+000	4,0467982E+000	3,9754212E+000	4,0601077E+000	-1,4965072E+000	-9,789589180909346E-002
1,206175590013590E+003	1,6046549E+001	4,0028048E+000	4,0420437E+000	3,9709151E+000	4,0567284E+000	-1,4965708E+000	-1,087041058192526E-001
1,232175589356775E+003	1,6033316E+001	3,9970539E+000	4,0378227E+000	3,9715078E+000	4,0534492E+000	-1,4965072E+000	-1,195123672096804E-001
1,258175588699960E+003	1,6017675E+001	3,9916866E+000	4,0335088E+000	3,9681675E+000	4,0500689E+000	-1,4965391E+000	-1,303206295982276E-001
1,284175588043145E+003	1,5998346E+001	3,9859769E+000	4,0298233E+000	3,9619300E+000	4,0468063E+000	-1,4964755E+000	-1,411289124906469E-001
1,310175587386329E+003	1,5982306E+001	3,9807415E+000	4,0256615E+000	3,9582455E+000	4,0435057E+000	-1,4965582E+000	-1,519372081440960E-001
1,336175586729514E+003	1,5966907E+001	3,9753544E+000	4,0219917E+000	3,9559157E+000	4,0403743E+000	-1,4965072E+000	-1,627454682561830E-001
1,362175586072699E+003	1,5952951E+001	3,9697194E+000	4,0183635E+000	3,9537976E+000	4,0369396E+000	-1,4965264E+000	-1,735537258086544E-001
1,388175585415884E+003	1,5939317E+001	3,9644485E+000	4,0146780E+000	3,9529583E+000	4,0338488E+000	-1,4965136E+000	-1,843619768745046E-001
1,414175584759068E+003	1,5925282E+001	3,9577610E+000	4,0112782E+000	3,9516799E+000	4,0305471E+000	-1,4964945E+000	-1,951702552401697E-001
1,440175584102253E+003	1,5911487E+001	3,9527378E+000	4,0079174E+000	3,9494467E+000	4,0273409E+000	-1,4965454E+000	-2,059785360926133E-001
1,466175583445438E+003	1,5897612E+001	3,9474099E+000	4,0044813E+000	3,9473474E+000	4,0241356E+000	-1,4964628E+000	-2,167868089461004E-001
1,492175582788623E+003	1,5882373E+001	3,9425566E+000	4,0011954E+000	3,9434733E+000	4,0210247E+000	-1,4965072E+000	-2,275950447204585E-001
1,518175582131807E+003	1,5868738E+001	3,9375906E+000	3,9980445E+000	3,9413357E+000	4,0178952E+000	-1,4965136E+000	-2,384032810654905E-001
1,544175581474992E+003	1,5854061E+001	3,9327972E+000	3,9950058E+000	3,9382062E+000	4,0146708E+000	-1,4965518E+000	-2,492114823892514E-001
1,570175580818177E+003	1,5840346E+001	3,9271841E+000	3,9918182E+000	3,9362037E+000	4,0115027E+000	-1,4965327E+000	-2,600196962334712E-001
1,596175580161362E+003	1,5829599E+001	3,9250770E+000	3,9886291E+000	3,9343140E+000	4,0082979E+000	-1,4965010E+000	-2,708279350499047E-001
1,622175579504546E+003	1,5817087E+001	3,9215059E+000	3,9856694E+000	3,9309926E+000	4,0052047E+000	-1,4965200E+000	-2,816361890434557E-001
1,648175578847731E+003	1,5802410E+001	3,9181380E+000	3,9825194E+000	3,9265664E+000	4,0019636E+000	-1,4965836E+000	-2,924444591095580E-001
1,674175578190916E+003	1,5788134E+001	3,9144776E+000	3,9795206E+000	3,9214506E+000	3,9988506E+000	-1,4965773E+000	-3,032527034620311E-001
1,700175577534101E+003	1,5772013E+001	3,9119756E+000	3,9764464E+000	3,9144681E+000	3,9958146E+000	-1,4965264E+000	-3,140609545076755E-001
1,726175576877285E+003	1,5756053E+001	3,9072948E+000	3,9736383E+000	3,9089706E+000	3,9925530E+000	-1,4965518E+000	-3,248692342543337E-001
1,752175576220470E+003	1,5739611E+001	3,9021547E+000	3,9705462E+000	3,9036865E+000	3,9895375E+000	-1,4965900E+000	-3,356774879377749E-001
1,778175575563655E+003	1,5725014E+001	3,8968637E+000	3,9676976E+000	3,9010301E+000	3,9864471E+000	-1,4964881E+000	-3,464857187060383E-001
1,804175574906840E+003	1,5710337E+001	3,8922436E+000	3,9649103E+000	3,8967001E+000	3,9834309E+000	-1,4965136E+000	-3,572939635688464E-001
1,830175574250025E+003	1,5696462E+001	3,8883092E+000	3,9619873E+000	3,8920252E+000	3,9802253E+000	-1,4965200E+000	-3,681022174562216E-001
1,856175573593209E+003	1,5680181E+001	3,8832841E+000	3,9590857E+000	3,8872914E+000	3,9771342E+000	-1,4965454E+000	-3,789104505395492E-001
1,882175572936394E+003	1,5666626E+001	3,8790624E+000	3,9561262E+000	3,8835700E+000	3,9741187E+000	-1,4965391E+000	-3,897186954287026E-001
1,908175572279579E+003	1,5655317E+001	3,8753378E+000	3,9532235E+000	3,8819480E+000	3,9710658E+000	-1,4965773E+000	-4,005269416597486E-001
1,934175571622764E+003	1,5645452E+001	3,8729093E+000	3,9503605E+000	3,8808410E+000	3,9680512E+000	-1,4964690E+000	-4,113351937939524E-001
1,960175570965948E+003	1,5633101E+001	3,8687079E+000	3,9475722E+000	3,8785119E+000	3,9649801E+000	-1,4965391E+000	-4,221434666198955E-001
1,986175570309133E+003	1,5621873E+001	3,8653498E+000	3,9447448E+000	3,8759172E+000	3,9621911E+000	-1,4965708E+000	-4,329517489350107E-001
2,012175569652318E+003	1,5609922E+001	3,8616228E+000	3,9419951E+000	3,8735895E+000	3,9591389E+000	-1,4965072E+000	-4,437600200094581E-001
2,038175568995503E+003	1,5596208E+001	3,8567927E+000	3,9391491E+000	3,8702512E+000	3,9562581E+000	-1,4965200E+000	-4,545682675300969E-001
2,064175568338687E+003	1,5585300E+001	3,8546677E+000	3,9363439E+000	3,8674068E+000	3,9532237E+000	-1,4965264E+000	-4,653764854202602E-001
2,090175567681872E+003	1,5573750E+001	3,8523390E+000	3,9336107E+000	3,8643527E+000	3,9502656E+000	-1,4965836E+000	-4,761847211185031E-001
2,116175567025057E+003	1,5562843E+001	3,8503532E+000	3,9307854E+000	3,8604233E+000	3,9474981E+000	-1,4965645E+000	-4,869929605276254E-001
2,142175566368242E+003	1,5550331E+001	3,8473544E+000	3,9280927E+000	3,8566816E+000	3,9445796E+000	-1,4965518E+000	-4,978012035475373E-001
2,168175565711426E+003	1,5538622E+001	3,8443942E+000	3,9254565E+000	3,8527696E+000	3,9417748E+000	-1,4964628E+000	-5,086094330089689E-001
2,194175565054611E+003	1,5525067E+001	3,8418901E+000	3,9226685E+000	3,8483040E+000	3,9390256E+000	-1,4965391E+000	-5,194176570199529E-001
2,220175564397796E+003	1,5513358E+001	3,8395391E+000	3,9200902E+000	3,8440106E+000	3,9361827E+000	-1,4965010E+000	-5,302258601052298E-001
2,246175563740981E+003	1,5500364E+001	3,8369823E+000	3,9171906E+000	3,8392599E+000	3,9334931E+000	-1,4964819E+000	-5,410340780952904E-001
2,272175563084165E+003	1,5487613E+001	3,8335633E+000	3,9147038E+000	3,8351560E+000	3,9307251E+000	-1,4965264E+000	-5,518423222726451E-001
2,298175562427350E+003	1,5476544E+001	3,8316324E+000	3,9119930E+000	3,8315291E+000	3,9278815E+000	-1,4966282E+000	-5,626505685570439E-001
2,324175561770535E+003	1,5464995E+001	3,8291492E+000	3,9092619E+000	3,8276548E+000	3,9253628E+000	-1,4964755E+000	-5,734587811563412E-001
2,350175561113720E+003	1,5457055E+001	3,8288438E+000	3,9065697E+000	3,8251548E+000	3,9226148E+000	-1,4965518E+000	-5,842670092841519E-001
2,376175560456904E+003	1,5448553E+001	3,8270900E+000	3,9040320E+000	3,8241818E+000	3,9200406E+000	-1,4965200E+000	-5,950752347035342E-001
2,402175559800089E+003	1,5441576E+001	3,8258832E+000	3,9012802E+000	3,8235326E+000	3,9174430E+000	-1,4965072E+000	-6,058834481413298E-001
2,428175559143274E+003	1,5432673E+001	3,8237243E+000	3,8986444E+000	3,8216817E+000	3,9149048E+000	-1,4964755E+000	-6,166916606646247E-001
2,454175558486459E+003	1,5425375E+001	3,8230560E+000	3,8961234E+000	3,8205941E+000	3,9123478E+000	-1,4965010E+000	-6,274998705925809E-001
2,480175557829643E+003	1,5415991E+001	3,8208406E+000	3,8935080E+000	3,8188393E+000	3,9096763E+000	-1,4965708E+000	-6,383080954456329E-001
2,506175557172828E+003	1,5407329E+001	3,8193498E+000	3,8910062E+000	3,8168354E+000	3,9071386E+000	-1,4965645E+000	-6,491162921089795E-001
2,532175556516013E+003	1,5397223E+001	3,8166373E+000	3,8883319E+000	3,8142200E+000	3,9046385E+000	-1,4965327E+000	-6,599245308193366E-001
2,558175555859198E+003	1,5385594E+001	3,8133311E+000	3,8858111E+000	3,8113751E+000	3,9020438E+000	-1,4965200E+000	-6,707327398058507E-001
2,584175555202382E+003	1,5376210E+001	3,8112876E+000	3,8831761E+000	3,8082662E+000	3,8996010E+000	-1,4965518E+000	-6,815409771990246E-001
2,610175554545567E+003	1,5364982E+001	3,8078699E+000	3,8807123E+000	3,8059378E+000	3,8970819E+000	-1,4965010E+000	-6,923491604795986E-001
2,636175553888752E+003	1,5353673E+001	3,8046985E+000	3,8780770E+000	3,8027892E+000	3,8945630E+000	-1,4965136E+000	-7,031573329782221E-001
2,662175553231937E+003	1,5342605E+001	3,8018899E+000	3,8755186E+000	3,7996039E+000	3,8921583E+000	-1,4965200E+000	-7,139655167030692E-001
2,688175552575121E+003	1,5331136E+001	3,7983379E+000	3,8728635E+000	3,7966630E+000	3,8897538E+000	-1,4965391E+000	-7,247736702921059E-001
2,714175551918306E+003	1,5319185E+001	3,7947454E+000	3,8705153E+000	3,7934008E+000	3,8871405E+000	-1,4964437E+000	-7,355818428469499E-001
2,740175551261491E+003	1,5308599E+001	3,7917295E+000	3,8679557E+000	3,7905378E+000	3,8847170E+000	-1,4965327E+000	-7,463900243347353E-001
2,766175550604676E+003	1,5296328E+001	3,7879655E+000	3,8654346E+000	3,7869687E+000	3,8823309E+000	-1,4965582E+000	-7,571982070354157E-001
2,792175549947860E+003	1,5285019E+001	3,7850630E+000	3,8630283E+000	3,7837238E+000	3,8800023E+000	-1,4965518E+000	-7,680064072681665E-001
2,818175549291045E+003	1,5273068E+001	3,7813182E+000	3,8604138E+000	3,7805769E+000	3,8776178E+000	-1,4965963E+000	-7,788146409512294E-001
2,844175548634230E+003	1,5262161E+001	3,7776897E+000	3,8578722E+000	3,7774286E+000	3,8751554E+000	-1,4965518E+000	-7,896228760011726E-001
2,870175547977415E+003	1,5249810E+001	3,7736776E+000	3,8553519E+000	3,7742400E+000	3,8726943E+000	-1,4964945E+000	-8,004310829721557E-001
2,896175547320599E+003	1,5238582E+001	3,7703552E+000	3,8529837E+000	3,7710342E+000	3,8703852E+000	-1,4965072E+000	-8,112393008596632E-001
2,922175546663784E+003	1,5226311E+001	3,7663984E+000	3,8504057E+000	3,7677901E+000	3,8679247E+000	-1,4965518E+000	-8,220475245421595E-001
2,948175546006969E+003	1,5214119E+001	3,7621980E+000	3,8479996E+000	3,7645648E+000	3,8656347E+000	-1,4964819E+000	-8,328557354763084E-001
2,974175545350154E+003	1,5200806E+001	3,7579188E+000	3,8453453E+000	3,7611871E+000	3,8632107E+000	-1,4965391E+000	-8,436639608195159E-001
3,000175544693338E+003	1,5189096E+001	3,7541349E+000	3,8429384E+000	3,7578664E+000	3,8609200E+000	-1,4965136E+000	-8,544721760770944E-001
3,026175544036523E+003	1,5177948E+001	3,7509847E+000	3,8405316E+000	3,7544904E+000	3,8585539E+000	-1,4964755E+000	-8,652803815968964E-001
3,052175543379708E+003	1,5165998E+001	3,7466879E+000	3,8379543E+000	3,7517023E+000	3,8561878E+000	-1,4965327E+000	-8,760885947326885E-001
3,078175542722893E+003	1,5155891E+001	3,7437642E+000	3,8355098E+000	3,7489541E+000	3,8539355E+000	-1,4964945E+000	-8,868968179112673E-001
3,104175542066077E+003	1,5144262E+001	3,7398293E+000	3,8330655E+000	3,7464931E+000	3,8516455E+000	-1,4965136E+000	-8,977050304476619E-001
3,130175541409262E+003	1,5133836E+001	3,7362571E+000	3,8304489E+000	3,7441642E+000	3,8492985E+000	-1,4964755E+000	-9,085132278054953E-001
3,156175540752447E+003	1,5122527E+001	3,7322261E+000	3,8280232E+000	3,7419689E+000	3,8469894E+000	-1,4965264E+000	-9,193214314886596E-001
3,182175540095632E+003	1,5111780E+001	3,7287149E+000	3,8256721E+000	3,7396238E+000	3,8447928E+000	-1,4964819E+000	-9,301296393657327E-001
3,208175539438816E+003	1,5101033E+001	3,7250862E+000	3,8229072E+000	3,7373331E+000	3,8423519E+000	-1,4965200E+000	-9,409378438337644E-001
3,234175538782001E+003	1,5090767E+001	3,7225971E+000	3,8205001E+000	3,7348127E+000	3,8401005E+000	-1,4965836E+000	-9,517460519408054E-001
3,260175538125186E+003	1,5081624E+001	3,7206891E+000	3,8179026E+000	3,7320077E+000	3,8376770E+000	-1,4964755E+000	-9,625542731222113E-001
3,286175537468371E+003	1,5072480E+001	3,7189324E+000	3,8153629E+000	3,7295463E+000	3,8353865E+000	-1,4965072E+000	-9,733624879326424E-001
3,312175536811556E+003	1,5064059E+001	3,7170975E+000	3,8130312E+000	3,7270083E+000	3,8330593E+000	-1,4965963E+000	-9,841706900136670E-001
3,338175536154740E+003	1,5054033E+001	3,7153029E+000	3,8103969E+000	3,7244694E+000	3,8308265E+000	-1,4965454E+000	-9,949788677007755E-001
3,364175535497925E+003	1,5044810E+001	3,7129121E+000	3,8079910E+000	3,7214563E+000	3,8285172E+000	-1,4965072E+000	-1,005787047581116E+000
3,390175534841110E+003	1,5035106E+001	3,7113502E+000	3,8054335E+000	3,7186310E+000	3,8263421E+000	-1,4965200E+000	-1,016595234497242E+000
3,416175534184295E+003	1,5026524E+001	3,7105849E+000	3,8030262E+000	3,7157300E+000	3,8240514E+000	-1,4965327E+000	-1,027403401938591E+000
3,442175533527479E+003	1,5016739E+001	3,7086360E+000	3,8003356E+000	3,7127700E+000	3,8217053E+000	-1,4964499E+000	-1,038211610321873E+000
3,468175532870664E+003	1,5006232E+001	3,7058635E+000	3,7981172E+000	3,7092805E+000	3,8195279E+000	-1,4964819E+000	-1,049019844102754E+000
3,494175532213849E+003	1,4996367E+001	3,7044332E+000	3,7954447E+000	3,7060163E+000	3,8172584E+000	-1,4964881E+000	-1,059828030212647E+000
3,520175531557034E+003	1,4987064E+001	3,7032855E+000	3,7929440E+000	3,7026398E+000	3,8151014E+000	-1,4964628E+000	-1,070636251502342E+000
3,546175530900218E+003	1,4977921E+001	3,7022171E+000	3,7905934E+000	3,6993749E+000	3,8128121E+000	-1,4965072E+000	-1,081444462927050E+000
3,572175530243403E+003	1,4966773E+001	3,6986637E+000	3,7880731E+000	3,6961880E+000	3,8104658E+000	-1,4965010E+000	-1,092252681291123E+000
3,598175529586588E+003	1,4956667E+001	3,6968694E+000	3,7856293E+000	3,6926968E+000	3,8082328E+000	-1,4965454E+000	-1,103060880809247E+000
3,624175528929773E+003	1,4945920E+001	3,6943288E+000	3,7831264E+000	3,6895089E+000	3,8059428E+000	-1,4964881E+000	-1,113869084628979E+000
3,650175528272957E+003	1,4936616E+001	3,6925139E+000	3,7804925E+000	3,6863225E+000	3,8038042E+000	-1,4964881E+000	-1,124677280634589E+000
3,676175527616142E+003	1,4927794E+001	3,6919804E+000	3,7781057E+000	3,6830983E+000	3,8015172E+000	-1,4965454E+000	-1,135485460003449E+000
3,702175526959327E+003	1,4917929E+001	3,6904702E+000	3,7754304E+000	3,6797380E+000	3,7993016E+000	-1,4964881E+000	-1,146293641504937E+000
3,728175526302512E+003	1,4907904E+001	3,6883118E+000	3,7729101E+000	3,6764171E+000	3,7970502E+000	-1,4964945E+000	-1,157101811697529E+000
3,754175525645696E+003	1,4898199E+001	3,6868219E+000	3,7703319E+000	3,6731546E+000	3,7950082E+000	-1,4965836E+000	-1,167910006593400E+000
3,780175524988881E+003	1,4889297E+001	3,6850133E+000	3,7678907E+000	3,6697206E+000	3,7926998E+000	-1,4965264E+000	-1,178718203901278E+000
3,806175524332066E+003	1,4879110E+001	3,6833827E+000	3,7653661E+000	3,6663041E+000	3,7905612E+000	-1,4964628E+000	-1,189526424435152E+000
3,832175523675251E+003	1,4869005E+001	3,6820452E+000	3,7628269E+000	3,6630397E+000	3,7883480E+000	-1,4965264E+000	-1,200334637629701E+000
3,858175523018435E+003	1,4858739E+001	3,6796198E+000	3,7602875E+000	3,6595280E+000	3,7860959E+000	-1,4965327E+000	-1,211142854118970E+000
3,884175522361620E+003	1,4848392E+001	3,6776512E+000	3,7579372E+000	3,6558454E+000	3,7837496E+000	-1,4965010E+000	-1,221951062819150E+000
3,910175521704805E+003	1,4838688E+001	3,6762006E+000	3,7552450E+000	3,6524861E+000	3,7814784E+000	-1,4964945E+000	-1,232759265906400E+000
3,936175521047990E+003	1,4829625E+001	3,6754746E+000	3,7527814E+000	3,6487656E+000	3,7793415E+000	-1,4964690E+000	-1,243567455299046E+000
3,962175520391174E+003	1,4819760E+001	3,6740978E+000	3,7502444E+000	3,6448748E+000	3,7771094E+000	-1,4965773E+000	-1,254375635075225E+000
3,988175519734359E+003	1,4810938E+001	3,6738329E+000	3,7477612E+000	3,6412277E+000	3,7748766E+000	-1,4965327E+000	-1,265183821798715E+000
4,014175519077544E+003	1,4799469E+001	3,6711760E+000	3,7452955E+000	3,6375625E+000	3,7727375E+000	-1,4965900E+000	-1,275992012390726E+000
4,040175518420729E+003	1,4789764E+001	3,6693420E+000	3,7426798E+000	3,6337852E+000	3,7705050E+000	-1,4965010E+000	-1,286800182461672E+000
4,066175517763913E+003	1,4780300E+001	3,6687527E+000	3,7401590E+000	3,6302912E+000	3,7681966E+000	-1,4965900E+000	-1,297608386691034E+000
4,092175517107098E+003	1,4770194E+001	3,6667650E+000	3,7377520E+000	3,6263039E+000	3,7659259E+000	-1,4965327E+000	-1,308416609674659E+000
4,118175516742005E+003	1,4760329E+001	3,6652005E+000	3,7351933E+000	3,6224873E+000	3,7638450E+000	-1,4964881E+000	-1,319224828556531E+000
4,144175516427218E+003	1,4749983E+001	3,6645868E+000	3,7327676E+000	3,6185939E+000	3,7615941E+000	-1,4966217E+000	-1,330033033367945E+000
4,170175516112431E+003	1,4739878E+001	3,6623716E+000	3,7302468E+000	3,6147215E+000	3,7592671E+000	-1,4965836E+000	-1,340841235413843E+000
4,196175515797644E+003	1,4730574E+001	3,6613762E+000	3,7277074E+000	3,6110179E+000	3,7571273E+000	-1,4964945E+000	-1,351649428598622E+000
4,222175515482857E+003	1,4719666E+001	3,6593897E+000	3,7252624E+000	3,6070294E+000	3,7548769E+000	-1,4965518E+000	-1,362457609679262E+000
4,248175515168070E+003	1,4710924E+001	3,6589887E+000	3,7227807E+000	3,6030796E+000	3,7525682E+000	-1,4965010E+000	-1,373265789210843E+000
4,274175514853283E+003	1,4700177E+001	3,6572289E+000	3,7201824E+000	3,5992646E+000	3,7502980E+000	-1,4965327E+000	-1,384073930866665E+000
4,300175514538496E+003	1,4692799E+001	3,6582863E+000	3,7176623E+000	3,5954080E+000	3,7481594E+000	-1,4965010E+000	-1,394882070563383E+000
4,326175514223709E+003	1,4683334E+001	3,6572328E+000	3,7151988E+000	3,5917051E+000	3,7459843E+000	-1,4965010E+000	-1,405690212723891E+000
4,352175513908922E+003	1,4675474E+001	3,6579614E+000	3,7125247E+000	3,5877948E+000	3,7437701E+000	-1,4965200E+000	-1,416498365557896E+000
4,378175513594135E+003	1,4666171E+001	3,6576722E+000	3,7101378E+000	3,5841482E+000	3,7415004E+000	-1,4964564E+000	-1,427306530287796E+000
4,404175513279348E+003	1,4657669E+001	3,6573291E+000	3,7076735E+000	3,5805416E+000	3,7392671E+000	-1,4966027E+000	-1,438114687963684E+000
4,430175512964561E+003	1,4649328E+001	3,6578057E+000	3,7050581E+000	3,5766866E+000	3,7371869E+000	-1,4964945E+000	-1,448922854035556E+000
4,456175512649774E+003	1,4640265E+001	3,6565833E+000	3,7023845E+000	3,5732894E+000	3,7348783E+000	-1,4965645E+000	-1,459731024502741E+000
4,482175512334987E+003	1,4630801E+001	3,6552846E+000	3,6999784E+000	3,5696840E+000	3,7327201E+000	-1,4965327E+000	-1,470539170712431E+000
4,508175512020200E+003	1,4621658E+001	3,6545794E+000	3,6974382E+000	3,5661917E+000	3,7305269E+000	-1,4964118E+000	-1,481347326040116E+000
4,534175511705413E+003	1,4611552E+001	3,6534507E+000	3,6947265E+000	3,5628505E+000	3,7281611E+000	-1,4965327E+000	-1,492155486866971E+000
4,560175511390626E+003	1,4603292E+001	3,6524785E+000	3,6922829E+000	3,5593200E+000	3,7259865E+000	-1,4965582E+000	-1,502963624449412E+000
4,586175511075839E+003	1,4593266E+001	3,6507001E+000	3,6896667E+000	3,5559044E+000	3,7238495E+000	-1,4965072E+000	-1,513771775695046E+000
4,612175510761052E+003	1,4583000E+001	3,6490960E+000	3,6872590E+000	3,5524511E+000	3,7215779E+000	-1,4965391E+000	-1,524579943380283E+000
4,638175510446265E+003	1,4573777E+001	3,6477969E+000	3,6846433E+000	3,5488820E+000	3,7194395E+000	-1,4965391E+000	-1,535388138253119E+000
4,664175510131477E+003	1,4563751E+001	3,6462655E+000	3,6819339E+000	3,5453918E+000	3,7172449E+000	-1,4965327E+000	-1,546196361159199E+000
4,690175509816690E+003	1,4554127E+001	3,6444726E+000	3,6794677E+000	3,5419350E+000	3,7150700E+000	-1,4964564E+000	-1,557004554923978E+000
4,716175509501903E+003	1,4544422E+001	3,6428497E+000	3,6767945E+000	3,5384243E+000	3,7127614E+000	-1,4965010E+000	-1,567812746252788E+000
4,742175509187116E+003	1,4534237E+001	3,6414187E+000	3,6743126E+000	3,5347805E+000	3,7106631E+000	-1,4965010E+000	-1,578620945550528E+000
4,768175508872329E+003	1,4524371E+001	3,6395650E+000	3,6716952E+000	3,5311730E+000	3,7084305E+000	-1,4964819E+000	-1,589429142687129E+000
4,794175508557542E+003	1,4513304E+001	3,6376355E+000	3,6690621E+000	3,5276229E+000	3,7063496E+000	-1,4964819E+000	-1,600237326369054E+000
4,820175508242755E+003	1,4503358E+001	3,6356668E+000	3,6666920E+000	3,5238438E+000	3,7041357E+000	-1,4965454E+000	-1,611045542135669E+000
4,846175507927968E+003	1,4493253E+001	3,6337004E+000	3,6643045E+000	3,5201061E+000	3,7019434E+000	-1,4965836E+000	-1,621853745604462E+000
4,872175507613181E+003	1,4482826E+001	3,6314263E+000	3,6615551E+000	3,5162678E+000	3,6997275E+000	-1,4965454E+000	-1,632661924841742E+000
4,898175507298394E+003	1,4473042E+001	3,6303186E+000	3,6590357E+000	3,5123751E+000	3,6975341E+000	-1,4964945E+000	-1,643470130869243E+000
4,924175506983607E+003	1,4462133E+001	3,6284270E+000	3,6563990E+000	3,5085194E+000	3,6954153E+000	-1,4965264E+000	-1,654278349352903E+000
4,950175506668820E+003	1,4451948E+001	3,6267276E+000	3,6539567E+000	3,5045323E+000	3,6932979E+000	-1,4964755E+000	-1,665086546414422E+000
4,976175506354033E+003	1,4441682E+001	3,6251037E+000	3,6513011E+000	3,5005233E+000	3,6911967E+000	-1,4965327E+000	-1,675894761038800E+000
5,002175506039246E+003	1,4431015E+001	3,6235187E+000	3,6489308E+000	3,4964035E+000	3,6890047E+000	-1,4965836E+000	-1,686702986569868E+000
5,028175505724459E+003	1,4420588E+001	3,6218567E+000	3,6463141E+000	3,4922423E+000	3,6869614E+000	-1,4965582E+000	-1,697511197012318E+000
5,054175505409672E+003	1,4409520E+001	3,6202159E+000	3,6437008E+000	3,4878333E+000	3,6848998E+000	-1,4965391E+000	-1,708319423619760E+000
5,080175505094885E+003	1,4398693E+001	3,6183960E+000	3,6412733E+000	3,4833310E+000	3,6827636E+000	-1,4964690E+000	-1,719127643061340E+000
5,106175504780098E+003	1,4387705E+001	3,6165266E+000	3,6385431E+000	3,4790161E+000	3,6805494E+000	-1,4966282E+000	-1,729935850753129E+000
5,132175504465311E+003	1,4377359E+001	3,6152465E+000	3,6360223E+000	3,4743598E+000	3,6786027E+000	-1,4964945E+000	-1,740744054161549E+000
5,158175504150524E+003	1,4365569E+001	3,6131470E+000	3,6333897E+000	3,4693816E+000	3,6762965E+000	-1,4965708E+000	-1,751552270072520E+000
5,184175503835737E+003	1,4353619E+001	3,6111987E+000	3,6309416E+000	3,4643419E+000	3,6743865E+000	-1,4964881E+000	-1,762360480295221E+000
5,210175503520950E+003	1,4341829E+001	3,6091554E+000	3,6281762E+000	3,4589996E+000	3,6723428E+000	-1,4965072E+000	-1,773168692148182E+000
5,236175503206163E+003	1,4330359E+001	3,6078544E+000	3,6258817E+000	3,4534063E+000	3,6702256E+000	-1,4965708E+000	-1,783976937215772E+000
5,262175502891376E+003	1,4318169E+001	3,6061161E+000	3,6233239E+000	3,4473600E+000	3,6680331E+000	-1,4965327E+000	-1,794785152898947E+000
5,288175502576589E+003	1,4304935E+001	3,6040356E+000	3,6208782E+000	3,4411366E+000	3,6662359E+000	-1,4965836E+000	-1,805593362191810E+000
5,314175502261802E+003	1,4292103E+001	3,6024871E+000	3,6181672E+000	3,4343426E+000	3,6640813E+000	-1,4964628E+000	-1,816401607618809E+000
5,340175501947015E+003	1,4278228E+001	3,6004434E+000	3,6154938E+000	3,4272056E+000	3,6620579E+000	-1,4965391E+000	-1,827209798081941E+000
5,366175501632228E+003	1,4264753E+001	3,5987632E+000	3,6129537E+000	3,4195914E+000	3,6600730E+000	-1,4965836E+000	-1,838017998604635E+000
5,392175501317441E+003	1,4249916E+001	3,5969474E+000	3,6104145E+000	3,4115574E+000	3,6580882E+000	-1,4965072E+000	-1,848826200487084E+000
5,418175501002654E+003	1,4235159E+001	3,5952287E+000	3,6078172E+000	3,4028172E+000	3,6561041E+000	-1,4965708E+000	-1,859634408617854E+000
5,444175500687867E+003	1,4219439E+001	3,5932040E+000	3,6052392E+000	3,3938079E+000	3,6538937E+000	-1,4964755E+000	-1,870442651473933E+000
5,470175500373080E+003	1,4202677E+001	3,5913699E+000	3,6026602E+000	3,3840182E+000	3,6520398E+000	-1,4965900E+000	-1,881250863012135E+000
5,496175500058293E+003	1,4186402E+001	3,5896316E+000	3,6001010E+000	3,3740003E+000	3,6500940E+000	-1,4965518E+000	-1,892059038699561E+000
5,522175499743506E+003	1,4169720E+001	3,5880647E+000	3,5975230E+000	3,3633697E+000	3,6480896E+000	-1,4964945E+000	-1,902867213453650E+000
5,548175499428718E+003	1,4152596E+001	3,5869355E+000	3,5947549E+000	3,3521888E+000	3,6461439E+000	-1,4965518E+000	-1,913675355314400E+000
5,574175499113931E+003	1,4134511E+001	3,5849340E+000	3,5922141E+000	3,3403776E+000	3,6441598E+000	-1,4965010E+000	-1,924483525615335E+000
5,600175498799144E+003	1,4115904E+001	3,5832717E+000	3,5895407E+000	3,3281264E+000	3,6422913E+000	-1,4964690E+000	-1,935291682989611E+000
5,626175498484357E+003	1,4096975E+001	3,5818758E+000	3,5867908E+000	3,3153946E+000	3,6402860E+000	-1,4965200E+000	-1,946099821791093E+000
5,652175498169570E+003	1,4076884E+001	3,5799282E+000	3,5840781E+000	3,3018460E+000	3,6386054E+000	-1,4964945E+000	-1,956907998797192E+000
5,678175497854783E+003	1,4056994E+001	3,5787442E+000	3,5814254E+000	3,2878964E+000	3,6365843E+000	-1,4965391E+000	-1,967716126850088E+000
5,704175497539996E+003	1,4037144E+001	3,5771587E+000	3,5789411E+000	3,2736769E+000	3,6348648E+000	-1,4964499E+000	-1,978524261356804E+000
5,730175497225209E+003	1,4016291E+001	3,5757632E+000	3,5760579E+000	3,2589061E+000	3,6328616E+000	-1,4964945E+000	-1,989332393471373E+000
5,756175496910422E+003	1,3994515E+001	3,5740635E+000	3,5733271E+000	3,2432578E+000	3,6310484E+000	-1,4964819E+000	-2,000140545261039E+000
5,782175496595635E+003	1,3971938E+001	3,5723648E+000	3,5705960E+000	3,2271338E+000	3,6291213E+000	-1,4965264E+000	-2,010948699843890E+000
5,808175496280848E+003	1,3949161E+001	3,5710835E+000	3,5679224E+000	3,2103000E+000	3,6272511E+000	-1,4965136E+000	-2,021756851163745E+000
5,834175495966061E+003	1,3925501E+001	3,5694556E+000	3,5651357E+000	3,1930354E+000	3,6256444E+000	-1,4965454E+000	-2,032564987867799E+000
5,860175495651274E+003	1,3901400E+001	3,5677025E+000	3,5626326E+000	3,1749582E+000	3,6237020E+000	-1,4964819E+000	-2,043373150026891E+000
5,886175495336487E+003	1,3876216E+001	3,5660415E+000	3,5598252E+000	3,1561043E+000	3,6219263E+000	-1,4964564E+000	-2,054181309139305E+000
5,912175495021700E+003	1,3850671E+001	3,5645127E+000	3,5570376E+000	3,1365054E+000	3,6199238E+000	-1,4965136E+000	-2,064989443880425E+000
5,938175494706913E+003	1,3823683E+001	3,5627165E+000	3,5541935E+000	3,1161077E+000	3,6182256E+000	-1,4965327E+000	-2,075797600221846E+000
5,964175494392126E+003	1,3796894E+001	3,5613403E+000	3,5516331E+000	3,0947151E+000	3,6165836E+000	-1,4965327E+000	-2,086605733473235E+000
5,990175494077339E+003	1,3768582E+001	3,5596409E+000	3,5491693E+000	3,0727296E+000	3,6146197E+000	-1,4965264E+000	-2,097413851306352E+000
6,016175493762552E+003	1,3739268E+001	3,5578082E+000	3,5466292E+000	3,0493314E+000	3,6130340E+000	-1,4964819E+000	-2,108221965611484E+000
6,042175493447765E+003	1,3708631E+001	3,5563369E+000	3,5441084E+000	3,0246813E+000	3,6111088E+000	-1,4965136E+000	-2,119030125276685E+000
6,068175493132978E+003	1,3676469E+001	3,5547516E+000	3,5418746E+000	2,9981902E+000	3,6093900E+000	-1,4965391E+000	-2,129838276236931E+000
6,094175492818191E+003	1,3642623E+001	3,5532241E+000	3,5394518E+000	2,9697566E+000	3,6076348E+000	-1,4965136E+000	-2,140646414566742E+000
6,120175492503404E+003	1,3606652E+001	3,5517907E+000	3,5375202E+000	2,9396002E+000	3,6058786E+000	-1,4965200E+000	-2,151454546260185E+000
6,146175492188617E+003	1,3569959E+001	3,5498996E+000	3,5353429E+000	2,9085147E+000	3,6041801E+000	-1,4965072E+000	-2,162262692679895E+000
6,172175491873830E+003	1,3533627E+001	3,5481043E+000	3,5333953E+000	2,8773115E+000	3,6024249E+000	-1,4964945E+000	-2,173070833554639E+000
6,198175491559043E+003	1,3497014E+001	3,5466325E+000	3,5312564E+000	2,8461094E+000	3,6006498E+000	-1,4965264E+000	-2,183878949724178E+000
6,224175491244256E+003	1,3459559E+001	3,5446091E+000	3,5293665E+000	2,8144565E+000	3,5988381E+000	-1,4964628E+000	-2,194687078784532E+000
6,250175490929469E+003	1,3423748E+001	3,5430238E+000	3,5274751E+000	2,7838645E+000	3,5970633E+000	-1,4965327E+000	-2,205495201007313E+000
6,276175490614682E+003	1,3387496E+001	3,5412464E+000	3,5254126E+000	2,7531528E+000	3,5954399E+000	-1,4965582E+000	-2,216303337073869E+000
6,302175490299895E+003	1,3351926E+001	3,5395279E+000	3,5232546E+000	2,7229462E+000	3,5937042E+000	-1,4964945E+000	-2,227111491143002E+000
6,328175489985108E+003	1,3316316E+001	3,5375607E+000	3,5214589E+000	2,6929295E+000	3,5919290E+000	-1,4965010E+000	-2,237919630676588E+000
6,354175489670321E+003	1,3281067E+001	3,5360126E+000	3,5194163E+000	2,6633074E+000	3,5901544E+000	-1,4964819E+000	-2,248727780725638E+000
6,380175489355534E+003	1,3246258E+001	3,5342362E+000	3,5175629E+000	2,6338055E+000	3,5883801E+000	-1,4964945E+000	-2,259535939776235E+000
6,406175489040746E+003	1,3211209E+001	3,5323648E+000	3,5154827E+000	2,6046278E+000	3,5866616E+000	-1,4964755E+000	-2,270344122758362E+000
6,432175488725959E+003	1,3177283E+001	3,5307405E+000	3,5136690E+000	2,5756218E+000	3,5849636E+000	-1,4965200E+000	-2,281152235020147E+000
6,458175488411172E+003	1,3142435E+001	3,5288303E+000	3,5116816E+000	2,5468965E+000	3,5832081E+000	-1,4965264E+000	-2,291960364594963E+000
6,484175488096385E+003	1,3108669E+001	3,5270538E+000	3,5094657E+000	2,5187345E+000	3,5813959E+000	-1,4965072E+000	-2,302768506236792E+000
6,510175487781598E+003	1,3074583E+001	3,5252585E+000	3,5074041E+000	2,4902384E+000	3,5797157E+000	-1,4965582E+000	-2,313576655823893E+000
6,536175487466811E+003	1,3041178E+001	3,5236533E+000	3,5053217E+000	2,4623604E+000	3,5779417E+000	-1,4965391E+000	-2,324384812153525E+000
6,562175487152024E+003	1,3007894E+001	3,5218956E+000	3,5032027E+000	2,4344969E+000	3,5760908E+000	-1,4965136E+000	-2,335192988419069E+000
6,588175486837237E+003	1,2973607E+001	3,5200052E+000	3,5011973E+000	2,4060218E+000	3,5742774E+000	-1,4965136E+000	-2,346001152971970E+000
6,614175486522450E+003	1,2940122E+001	3,5183239E+000	3,4990783E+000	2,3784292E+000	3,5725210E+000	-1,4965582E+000	-2,356809327120172E+000
6,640175486207663E+003	1,2906918E+001	3,5166810E+000	3,4973395E+000	2,3503752E+000	3,5704999E+000	-1,4965264E+000	-2,367617486920065E+000
6,666175485892876E+003	1,2872591E+001	3,5150762E+000	3,4955068E+000	2,3218136E+000	3,5688753E+000	-1,4965518E+000	-2,378425659948640E+000
6,692175485578089E+003	1,2837943E+001	3,5130329E+000	3,4935582E+000	2,2927804E+000	3,5668931E+000	-1,4964628E+000	-2,389233826982180E+000
6,718175485263302E+003	1,2802613E+001	3,5111423E+000	3,4910574E+000	2,2633145E+000	3,5651941E+000	-1,4965836E+000	-2,400041936909093E+000
6,744175484948515E+003	1,2765920E+001	3,5092893E+000	3,4890907E+000	2,2324033E+000	3,5632839E+000	-1,4965136E+000	-2,410850039821280E+000
6,770175484633728E+003	1,2729067E+001	3,5072842E+000	3,4872568E+000	2,2011654E+000	3,5613766E+000	-1,4964819E+000	-2,421658160013927E+000
6,796175484318941E+003	1,2690609E+001	3,5055647E+000	3,4853659E+000	2,1684158E+000	3,5594873E+000	-1,4965391E+000	-2,432466243806839E+000
6,822175484004154E+003	1,2651269E+001	3,5035591E+000	3,4833050E+000	2,1351540E+000	3,5575805E+000	-1,4965136E+000	-2,443274344525721E+000
6,848175483689367E+003	1,2610806E+001	3,5016859E+000	3,4811835E+000	2,1008656E+000	3,5556347E+000	-1,4965136E+000	-2,454082451701681E+000
6,874175483374580E+003	1,2569702E+001	3,4998515E+000	3,4788733E+000	2,0658047E+000	3,5536492E+000	-1,4964881E+000	-2,464890578655945E+000
6,900175483059793E+003	1,2528999E+001	3,4976945E+000	3,4763908E+000	2,0316787E+000	3,5518935E+000	-1,4965645E+000	-2,475698723198646E+000
6,929582882703748E+003	1,3167579E+001	3,5002344E+000	3,4763613E+000	2,4825296E+000	3,5831347E+000	0,0000000E+000	-2,485082024913238E+000
9,269215454377350E+003	1,4167955E+001	3,6102967E+000	3,5630722E+000	3,3604474E+000	3,6177757E+000	0,0000000E+000	-2,485082024913238E+000